Folder: DaFy_P23/scripts/old_scripts/data/ascii

File: I20180835_231_CV_XRD.dat
# I20180835 #231 CV with XRD
# Potential / V, Current Density / mA/cm^2, Strain ip / %, Strain oop / %, d ip / nm, d oop / nm, Intensity (area ip)
0.686328 -0.0273438 -0.126345 0.360643 19.3856 14.5837 0.0105014
0.704609 -0.0311719 -0.118715 0.356989 19.3131 14.5184 0.0103537
0.749375 -0.0330469 -0.115907 0.350984 19.4047 14.5623 0.0103225
0.777734 -0.0335156 -0.11795 0.34138 19.4099 14.5393 0.0104598
0.805391 -0.0369531 -0.114002 0.327421 19.3559 14.5078 0.0102162
0.838203 -0.0376563 -0.106426 0.31338 19.1524 14.4679 0.00919857
0.877266 -0.039375 -0.105317 0.305365 19.0526 14.4528 0.00757271
0.908984 -0.0425781 -0.109007 0.293807 19.0384 14.3835 0.00705161
0.939922 -0.0500781 -0.110019 0.285207 19.2103 14.495 0.00842294
0.971719 -0.0703906 -0.131735 0.286332 19.1769 14.5067 0.0100193
1.01 -0.108828 -0.147931 0.273872 19.161 14.359 0.0103582
1.03742 -0.173359 -0.156691 0.27163 19.1579 14.3614 0.0104327
1.06469 -0.258984 -0.160395 0.272119 19.0825 14.3761 0.0101683
1.10617 -0.355781 -0.156298 0.266884 19.2234 14.4079 0.0100407
1.14086 -0.468125 -0.156588 0.262387 19.0902 14.2801 0.010172
1.14633 -0.403516 -0.156435 0.266169 19.072 14.2882 0.00999351
1.10727 -0.245078 -0.152121 0.259828 19.0678 14.2385 0.00989751
1.07469 -0.148047 -0.154553 0.270905 19.0427 14.3905 0.00980579
1.04508 -0.0903125 -0.152566 0.267156 19.1659 14.4898 0.0100716
1.01727 -0.0609375 -0.152468 0.268687 19.0901 14.2847 0.0100922
0.978203 -0.0459375 -0.154445 0.266813 19.1774 14.3559 0.00988861
0.937578 -0.0390625 -0.155104 0.274931 19.1331 14.4761 0.0101971
0.910938 -0.0357813 -0.154314 0.272155 19.1855 14.487 0.010114
0.882812 -0.0332031 -0.153979 0.276991 19.1924 14.4829 0.0099936
0.843594 -0.03 -0.152923 0.285568 19.2527 14.5012 0.0104026
0.806016 -0.0269531 -0.155703 0.293263 19.2778 14.4862 0.0104494
0.777734 -0.0286719 -0.155842 0.301693 19.1482 14.4124 0.010533
0.754297 -0.0275 -0.156572 0.312062 19.2101 14.4702 0.010435
0.713984 -0.02875 -0.155412 0.319595 19.2554 14.4822 0.0104425
0.677813 -0.0264062 -0.15211 0.330709 19.2266 14.4348 0.0105556
0.653047 -0.0278125 -0.149438 0.338469 19.3946 14.6014 0.0106407
0.617891 -0.024375 -0.149277 0.348215 19.3739 14.5531 0.0106306
0.573125 -0.024375 -0.143515 0.361828 19.3461 14.5866 0.0107027
0.543672 -0.0225781 -0.140257 0.371284 19.3974 14.6312 0.0106537
0.510469 -0.0242188 -0.139629 0.392637 19.3658 14.7282 0.0110185
0.485 -0.023125 -0.139194 0.404181 19.4752 14.7383 0.0110585
0.454297 -0.0225 -0.12986 0.409963 19.3378 14.7578 0.0109041
0.419297 -0.021875 -0.13284 0.43314 19.2897 14.6916 0.0110132
0.375234 -0.0217969 -0.126662 0.442467 19.4201 14.8774 0.0109952
0.349687 -0.0220312 -0.123916 0.462039 19.299 14.8432 0.0113709
0.360547 -0.0251563 -0.11918 0.461988 19.4346 14.9344 0.0110459
0.385234 -0.0240625 -0.117281 0.463432 19.3839 14.847 0.011101
0.429141 -0.0275 -0.118787 0.454641 19.3771 14.8664 0.0110696
0.457031 -0.0280469 -0.120256 0.450455 19.4681 14.8678 0.0109881
0.498984 -0.0283594 -0.121014 0.433721 19.4553 14.8235 0.0111507
0.522344 -0.0292188 -0.120269 0.427151 19.4683 14.7425 0.0110985
0.560078 -0.0299219 -0.123814 0.41547 19.4113 14.6872 0.0111247
0.592578 -0.0299219 -0.123026 0.410073 19.4703 14.7659 0.011194
0.628125 -0.0299219 -0.123816 0.394275 19.4729 14.723 0.0109805
0.652813 -0.0314063 -0.122738 0.381035 19.3401 14.6322 0.011194
0.692734 -0.0319531 -0.125293 0.374446 19.4431 14.6986 0.0113154
0.726328 -0.0332812 -0.124691 0.355749 19.3348 14.5932 0.0110101
0.755938 -0.0358594 -0.127925 0.349315 19.2922 14.5155 0.0109823
0.786328 -0.0360938 -0.131066 0.334791 19.2663 14.5314 0.0110491
0.819688 -0.0383594 -0.132832 0.320776 19.3893 14.5959 0.0109844
0.857812 -0.0400781 -0.135555 0.313918 19.3172 14.5359 0.0107781
0.891563 -0.0392188 -0.13842 0.303049 19.2902 14.4697 0.0106565
0.925234 -0.0469531 -0.141491 0.290898 19.2832 14.4329 0.0104096
0.954141 -0.0575 -0.144611 0.284944 19.1896 14.421 0.0104379
0.992656 -0.0874219 -0.143834 0.279641 19.1052 14.3535 0.0104131
1.01945 -0.133906 -0.150891 0.275505 19.1483 14.3109 0.0103864
1.0518 -0.206484 -0.15415 0.268887 19.0427 14.3031 0.0102662
1.09094 -0.293359 -0.156187 0.26882 19.1621 14.3003 0.0100653
1.1193 -0.402031 -0.15738 0.262486 19.0364 14.3523 0.0103135
1.15828 -0.514141 -0.160032 0.270843 19.0484 14.2529 0.0101909
1.12953 -0.330547 -0.163045 0.262569 19.1472 14.3746 0.0102347
1.09609 -0.198125 -0.162468 0.263536 19.0795 14.3033 0.0102931
1.04953 -0.120547 -0.162679 0.259872 19.0614 14.2927 0.0101896
1.02781 -0.0778125 -0.163282 0.26289 19.1027 14.2193 0.0101086
1.00375 -0.0553125 -0.16346 0.262421 19.1458 14.3641 0.0103529
0.957266 -0.0428125 -0.162612 0.269409 19.0287 14.362 0.0103577
0.931641 -0.0369531 -0.161099 0.270143 19.0561 14.3965 0.0102274
0.903281 -0.0338281 -0.159583 0.274366 19.0912 14.2757 0.010249
0.877891 -0.0317188 -0.160519 0.282854 19.1636 14.3541 0.0104138
0.835938 -0.0295313 -0.162825 0.281169 19.1755 14.4264 0.0105531
0.8 -0.0263281 -0.160007 0.28532 19.2085 14.4477 0.0104499
0.766406 -0.026875 -0.159075 0.29311 19.1796 14.4304 0.0107273
0.735078 -0.0286719 -0.162335 0.308279 19.1509 14.4569 0.0106633
0.707109 -0.028125 -0.161192 0.318837 19.1723 14.3862 0.0107106
0.667031 -0.0276563 -0.157184 0.32656 19.2193 14.4904 0.0108487
0.638906 -0.0255469 -0.155089 0.335179 19.2453 14.487 0.0109259
0.605938 -0.0257031 -0.152019 0.340978 19.2978 14.5961 0.0109327
0.57625 -0.0242969 -0.153064 0.357528 19.3336 14.5588 0.0110874
0.540234 -0.024375 -0.148527 0.369745 19.3274 14.6398 0.0111675
0.508047 -0.0242188 -0.146607 0.387138 19.3839 14.668 0.0113118
0.475 -0.0221875 -0.142682 0.395381 19.4291 14.7546 0.0111399
0.439219 -0.0229687 -0.139203 0.408473 19.4743 14.7556 0.0112578
0.401875 -0.0226562 -0.13258 0.43031 19.3348 14.7533 0.011126
0.373203 -0.0216406 -0.130905 0.443946 19.448 14.7877 0.0112688
0.341641 -0.021875 -0.126498 0.455722 19.3518 14.8643 0.0113403
0.368359 -0.0235156 -0.124206 0.460338 19.3669 14.839 0.0112213
0.401328 -0.0249219 -0.125681 0.450916 19.4378 14.849 0.0110979
0.429297 -0.0258594 -0.122818 0.445128 19.49 14.8239 0.011408
0.474531 -0.0278125 -0.124015 0.436184 19.3342 14.8134 0.0111725
0.504141 -0.0278125 -0.126378 0.435247 19.3207 14.7726 0.0112739
0.533438 -0.0278906 -0.12726 0.416445 19.4336 14.7152 0.0113319
0.564141 -0.0282813 -0.127579 0.407108 19.3949 14.6797 0.0113167
0.598438 -0.0303906 -0.128062 0.39384 19.3564 14.6463 0.011374
0.631953 -0.0319531 -0.131476 0.386915 19.4209 14.7331 0.0114093
0.659453 -0.0297656 -0.131791 0.370091 19.4183 14.6541 0.011379
0.697813 -0.0342187 -0.132032 0.36161 19.3402 14.5559 0.0110771
0.732734 -0.0324219 -0.132604 0.353957 19.3009 14.5652 0.0110073
0.759766 -0.0354688 -0.130345 0.34833 19.3054 14.5324 0.0110454
0.799375 -0.036875 -0.130683 0.329214 19.3541 14.5025 0.0111787
0.831094 -0.0388281 -0.136366 0.316391 19.2869 14.4048 0.0110518
0.866016 -0.0390625 -0.135368 0.302189 19.1481 14.4319 0.0109361
0.895391 -0.04125 -0.139055 0.300241 19.0932 14.5259 0.0109082
0.932031 -0.0469531 -0.144438 0.287821 19.2916 14.4947 0.0105693
0.965156 -0.0604688 -0.14591 0.281875 19.2036 14.4294 0.010527
0.989688 -0.0915625 -0.149921 0.273211 19.2288 14.4563 0.0105267
1.0332 -0.139375 -0.152344 0.265925 19.1346 14.4511 0.0102385
1.06172 -0.210938 -0.155434 0.261599 19.1073 14.3629 0.0104296
1.09602 -0.305312 -0.160112 0.26424 19.1271 14.3504 0.0101435
1.125 -0.407109 -0.164898 0.26392 19.0474 14.2409 0.0103395
1.15609 -0.517344 -0.16643 0.257933 19.0196 14.3108 0.0102248
1.12891 -0.307031 -0.164717 0.256457 19.2109 14.3292 0.0104
1.09727 -0.190781 -0.168298 0.255488 19.0266 14.2483 0.0102333
1.05563 -0.114609 -0.16748 0.257432 19.0715 14.2953 0.0105584
1.03156 -0.0710937 -0.165007 0.254306 18.981 14.3485 0.0105068
0.993594 -0.0507812 -0.167027 0.260806 19.1324 14.3626 0.0104627
0.963594 -0.0392188 -0.166968 0.260127 19.117 14.302 0.0103894
0.931875 -0.0359375 -0.163089 0.261981 19.092 14.3487 0.0104585
0.897734 -0.0320312 -0.163345 0.26419 19.2023 14.327 0.0104264
0.861406 -0.0297656 -0.163265 0.273844 19.1566 14.3323 0.010649
0.830391 -0.029375 -0.161757 0.284341 19.1771 14.4066 0.010585
0.8 -0.0271094 -0.161532 0.287377 19.1351 14.3903 0.0106675
0.758828 -0.0297656 -0.161649 0.297671 19.1915 14.4132 0.0107365
0.735078 -0.0277344 -0.163162 0.301019 19.1854 14.4771 0.0108267
0.696328 -0.0265625 -0.161314 0.31554 19.266 14.4554 0.0110646
0.666563 -0.0267969 -0.158059 0.321039 19.2265 14.5853 0.0107897
0.636797 -0.0267187 -0.156653 0.331778 19.2592 14.4496 0.0108525
0.598672 -0.0253906 -0.155203 0.346127 19.2934 14.6006 0.0108843
0.570781 -0.02625 -0.154273 0.36073 19.343 14.6417 0.0113992
0.533984 -0.025 -0.151204 0.370478 19.3511 14.559 0.0111555
0.494609 -0.025 -0.145147 0.38371 19.4008 14.6083 0.0111286
0.4575 -0.0238281 -0.143203 0.394126 19.381 14.7135 0.0111693
0.438984 -0.0233594 -0.140805 0.411633 19.463 14.7677 0.0115302
0.406328 -0.0225 -0.135283 0.419712 19.4036 14.7539 0.0113581
0.372266 -0.021875 -0.131318 0.436093 19.343 14.7711 0.011413
0.334141 -0.0223437 -0.130919 0.459625 19.346 14.7546 0.0114107
0.366641 -0.0246094 -0.124984 0.461164 19.4644 14.7735 0.0114387
0.397344 -0.0257031 -0.123591 0.448023 19.4683 14.7439 0.0114299
0.438984 -0.0273438 -0.125499 0.444508 19.4009 14.7666 0.0115299
0.468359 -0.0272656 -0.125131 0.439757 19.421 14.8196 0.0113064
0.501406 -0.0285938 -0.125462 0.422142 19.2706 14.6708 0.0112749
0.537656 -0.0275781 -0.123628 0.408279 19.3819 14.6594 0.0113567
0.567031 -0.02875 -0.126995 0.405619 19.4012 14.6998 0.0113384
0.606406 -0.0317188 -0.129361 0.384689 19.4706 14.7056 0.011413
0.635703 -0.0296875 -0.133922 0.375446 19.4138 14.6037 0.0113577
0.668125 -0.0328906 -0.13001 0.366504 19.2543 14.5407 0.01143
0.683359 -0.0322656 -0.132458 0.357637 19.3314 14.577 0.0110156