Folder: DaFy_P23/scripts/CV_XRD/data/ascii

File: I20180835_221_CV_XRD.dat
# I20180835 #221 CV with XRD
# Potential / V, Current Density / mA/cm^2, Strain ip / %, Strain oop / %, d ip / nm, d oop / nm, Intensity (area ip)
0.564844 -0.0290625 -0.0741943 0.417381 19.3933 14.7798 0.0118643
0.583047 -0.0277344 -0.0868184 0.419638 19.3222 14.741 0.0117072
0.598594 -0.0286719 -0.083516 0.411196 19.3192 14.7549 0.0117609
0.632812 -0.0300781 -0.0842984 0.407243 19.3041 14.7307 0.0117218
0.653984 -0.0341406 -0.0858137 0.401912 19.2676 14.671 0.0116467
0.681719 -0.0309375 -0.0889538 0.388641 19.2374 14.5869 0.0114614
0.705937 -0.0335937 -0.0888186 0.3832 19.2067 14.5999 0.0114002
0.733906 -0.0346094 -0.0904587 0.378627 19.2056 14.5838 0.011335
0.761875 -0.0360156 -0.0914781 0.371866 19.1141 14.5321 0.0112511
0.778203 -0.0385156 -0.0941317 0.364675 19.2769 14.521 0.0111964
0.806328 -0.0532031 -0.0941739 0.357757 19.0479 14.4554 0.0112902
0.825703 -0.0797656 -0.0947584 0.353687 19.1143 14.5168 0.0111532
0.859375 -0.116562 -0.101432 0.348859 19.1432 14.4564 0.0110623
0.879766 -0.170547 -0.100417 0.351456 19.1916 14.3977 0.0110038
0.905391 -0.236328 -0.102797 0.34863 19.0171 14.4046 0.0109448
0.931875 -0.304766 -0.108123 0.346069 19.0406 14.4226 0.0107703
0.951641 -0.375469 -0.102825 0.340463 19.096 14.3243 0.0110531
0.944375 -0.28375 -0.103667 0.34166 19.1347 14.4513 0.0109851
0.918359 -0.198828 -0.105718 0.341547 19.0315 14.4548 0.0112104
0.88625 -0.137266 -0.104525 0.344302 19.0792 14.369 0.0109141
0.861094 -0.0941406 -0.103667 0.345189 19.0713 14.3834 0.010987
0.849609 -0.0659375 -0.107671 0.340554 19.2221 14.4708 0.0109427
0.812188 -0.0485156 -0.107329 0.339411 19.0245 14.416 0.0109532
0.790625 -0.0375 -0.110687 0.340677 19.1347 14.3797 0.0112289
0.752891 -0.0307812 -0.10832 0.348903 19.0969 14.4463 0.0114928
0.739219 -0.028125 -0.10639 0.344998 19.1474 14.4917 0.0111113
0.714844 -0.0310156 -0.106918 0.351059 19.2265 14.5417 0.0111353
0.693516 -0.0278125 -0.108653 0.353194 19.221 14.4988 0.0112967
0.669297 -0.0278125 -0.104827 0.358896 19.2038 14.5072 0.0114093
0.642734 -0.0285156 -0.105552 0.359989 19.2288 14.6249 0.0113853
0.61375 -0.0260937 -0.100252 0.363685 19.2789 14.7264 0.0115803
0.589688 -0.0241406 -0.103924 0.376256 19.3739 14.6807 0.011585
0.569219 -0.0264062 -0.104555 0.382046 19.2959 14.6518 0.0116347
0.55 -0.0242188 -0.104166 0.381629 19.3405 14.7145 0.0117086
0.518359 -0.0233594 -0.103956 0.39245 19.3787 14.6219 0.0115501
0.488828 -0.0258594 -0.101936 0.397215 19.3104 14.7017 0.0114755
0.472266 -0.0274219 -0.0994172 0.403431 19.4211 14.6913 0.0116971
0.442422 -0.0235156 -0.101226 0.410767 19.4013 14.7323 0.011684
0.422656 -0.0264844 -0.0968803 0.418519 19.3457 14.734 0.0116811
0.386719 -0.0265625 -0.0996631 0.421465 19.3382 14.7461 0.011747
0.365312 -0.0250781 -0.0980325 0.43368 19.3283 14.8824 0.0119059
0.347734 -0.0242188 -0.0943503 0.442995 19.3591 14.8601 0.0116543
0.310703 -0.0229687 -0.0917302 0.450227 19.3222 14.8846 0.0116438
0.289922 -0.0234375 -0.0902204 0.453147 19.3139 14.9245 0.0119079
0.264219 -0.0221094 -0.0901038 0.467489 19.2453 14.927 0.0117097
0.234219 -0.0210938 -0.0871833 0.474358 19.3052 15.0241 0.0117236
0.222891 -0.02375 -0.0894673 0.485915 19.3368 15.0117 0.0115312
0.254219 -0.0242188 -0.086667 0.485172 19.2901 14.9652 0.0117137
0.274688 -0.0250781 -0.0861212 0.486445 19.322 14.9682 0.0114974
0.303203 -0.0259375 -0.0872299 0.47928 19.2524 14.9312 0.0113395
0.331094 -0.0247656 -0.08469 0.476891 19.2155 14.9577 0.0116066
0.352578 -0.0273438 -0.082623 0.471317 19.4215 14.9036 0.0116739
0.370781 -0.0271094 -0.082095 0.471708 19.4255 14.9415 0.0119993
0.403125 -0.0286719 -0.0852726 0.466341 19.3303 14.9008 0.0118231
0.428828 -0.0285156 -0.0831356 0.464425 19.4095 14.8708 0.01176
0.449219 -0.0292188 -0.0836592 0.454495 19.4165 14.8987 0.0118394
0.474844 -0.0292188 -0.0842691 0.451816 19.3636 15.0154 0.0119345
0.499844 -0.0289063 -0.0853903 0.44373 19.4604 14.8058 0.0116632
0.529922 -0.0275781 -0.0869753 0.436416 19.3883 14.9276 0.0115939
0.543281 -0.0314844 -0.0853908 0.433056 19.3216 14.8412 0.01183
0.571953 -0.0291406 -0.0871976 0.427411 19.4103 14.7347 0.0118615
0.594141 -0.0333594 -0.087275 0.42076 19.3261 14.754 0.0116038
0.622578 -0.0332031 -0.0881788 0.410305 19.405 14.7141 0.0117336
0.654453 -0.0320312 -0.0895173 0.403341 19.3183 14.6545 0.011619
0.677969 -0.0335156 -0.0900705 0.397413 19.4127 14.5831 0.0116103
0.695 -0.0317188 -0.0933547 0.391408 19.2653 14.5539 0.0115931
0.726016 -0.0351562 -0.0944819 0.379204 19.1985 14.5932 0.0116309
0.745859 -0.0363281 -0.0962811 0.368209 19.2537 14.5971 0.0114929
0.777578 -0.0404687 -0.099245 0.360474 19.1216 14.4339 0.0113401
0.798672 -0.051875 -0.0989037 0.358294 19.2491 14.532 0.0114515
0.824531 -0.0726563 -0.0993448 0.351807 19.0752 14.3562 0.0112085
0.852031 -0.109688 -0.101996 0.351619 19.1731 14.4771 0.0112594
0.875547 -0.16 -0.0992998 0.348073 19.0874 14.4967 0.0111769
0.896563 -0.220703 -0.100663 0.343065 19.0877 14.4523 0.0112756
0.932344 -0.291484 -0.105521 0.347654 19.0141 14.4607 0.0110509
0.945312 -0.359766 -0.10863 0.342887 19.0876 14.4826 0.0112982
0.938125 -0.319141 -0.108799 0.334437 19.1532 14.4274 0.0111048
0.925 -0.222891 -0.109499 0.340389 19.0574 14.3324 0.0111146
0.899453 -0.155312 -0.178711 0.2803 18.2051 14.1791 0.00597395
0.874844 -0.104688 -0.0631552 0.351776 18.6976 12.6808 0.001171
0.850156 -0.0717969 0.0875508 0.20892 23.2211 13.8339 0.000263982
0.821719 -0.0514844 -0.0704571 0.323633 19.0103 14.1961 0.00246666
0.804688 -0.0392969 -0.0849336 0.327556 19.0812 14.4661 0.00821961
0.773828 -0.0355469 -0.0933946 0.344775 19.0313 14.415 0.0106399
0.748672 -0.0332031 -0.100177 0.344577 19.1479 14.503 0.0110848
0.721719 -0.0292188 -0.109047 0.357236 19.1678 14.4288 0.0112086
0.701172 -0.0301562 -0.106022 0.357616 19.0678 14.5261 0.0111354
0.675078 -0.0299219 -0.104593 0.355253 19.1883 14.4858 0.0114184
0.653516 -0.0285938 -0.103534 0.364216 19.1825 14.5606 0.0113697
0.630078 -0.0284375 -0.102756 0.36699 19.1713 14.6226 0.0115443
0.602891 -0.028125 -0.102538 0.37388 19.2377 14.7336 0.0114409
0.572266 -0.02875 -0.100147 0.38015 19.3095 14.6645 0.0115438
0.553125 -0.0252344 -0.0985749 0.384241 19.2936 14.652 0.0116207
0.533125 -0.0278125 -0.0976639 0.386112 19.2833 14.6922 0.0112757
0.514609 -0.0264844 -0.0969704 0.399044 19.3288 14.716 0.0115978
0.479219 -0.0274219 -0.0925634 0.406186 19.243 14.7898 0.0115083
0.4525 -0.0254688 -0.0892415 0.406696 19.3014 14.7892 0.0114013
0.433594 -0.0263281 -0.0799983 0.415474 19.3068 14.7256 0.0108668
0.411172 -0.0255469 -0.0714066 0.415935 19.3275 14.7583 0.00956318
0.378984 -0.0242188 -0.0667076 0.42364 19.1752 14.7532 0.00859396
0.350156 -0.0258594 -0.0680469 0.435264 19.2841 14.7292 0.00894758
0.326094 -0.0225 -0.0743322 0.441694 19.3475 14.9417 0.0103076
0.295938 -0.0236719 -0.0831494 0.458102 19.3735 14.9995 0.0114222
0.290234 -0.0223437 -0.0951413 0.465001 19.3028 14.9166 0.011719
0.254609 -0.0198438 -0.0971493 0.464287 19.353 14.8199 0.0120692
0.236016 -0.0234375 -0.098539 0.469755 19.2897 14.9462 0.0121319
0.233828 -0.0213281 -0.0967022 0.478324 19.2961 14.9403 0.0118536
0.250703 -0.0249219 -0.0953377 0.475662 19.4041 15.0029 0.0123093
0.285 -0.0241406 -0.0879559 0.471616 19.4551 15.058 0.0120175
0.309688 -0.0261719 -0.0857023 0.47979 19.457 15.0579 0.0119164
0.334219 -0.0269531 -0.0884309 0.479116 19.2186 14.9745 0.0116546
0.359844 -0.0286719 -0.083041 0.476359 19.2881 14.9856 0.0118549
0.388437 -0.0284375 -0.0850442 0.471722 19.4054 15.007 0.0120595
0.403984 -0.0280469 -0.079917 0.46425 19.4484 14.9278 0.0117496
0.431797 -0.0273438 -0.0835997 0.45814 19.3923 14.878 0.0120435
0.459062 -0.0298438 -0.0817915 0.459073 19.3379 14.8703 0.0118553
0.483516 -0.0303906 -0.0848559 0.450893 19.3657 14.8807 0.0118727
0.511641 -0.0315625 -0.0863394 0.441728 19.3715 14.8127 0.0119032
0.534219 -0.0296875 -0.0877504 0.439364 19.4494 14.8579 0.0119719
0.563672 -0.031875 -0.0880091 0.433706 19.3723 14.8651 0.0119082
0.566953 -0.0292188 -0.0886081 0.429824 19.3436 14.7974 0.0117229
0.565547 -0.0272656 -0.0889807 0.420662 19.4363 14.8186 0.0118749
0.568359 -0.0291406 -0.089923 0.424229 19.2585 14.7698 0.0119092
0.563438 -0.029375 -0.0893843 0.418626 19.2867 14.8349 0.0117197

File: I20180835_229_CV_XRD.dat
# I20180835 #229 CV with XRD
# Potential / V, Current Density / mA/cm^2, Strain ip / %, Strain oop / %, d ip / nm, d oop / nm, Intensity (area ip)
0.366484 -0.0299219 -0.0901979 0.430186 19.4434 14.7866 0.0121637
0.386563 -0.0350781 -0.0903962 0.430233 19.3901 14.8121 0.0119962
0.417891 -0.0355469 -0.0923852 0.419608 19.4213 14.7217 0.0122862
0.455156 -0.0373438 -0.0896268 0.415212 19.4784 14.8239 0.0121589
0.494766 -0.0396094 -0.0966512 0.405283 19.3553 14.7155 0.0122824
0.513281 -0.0399219 -0.0982068 0.3931 19.4346 14.7069 0.0121746
0.549687 -0.0438281 -0.100624 0.383948 19.239 14.6357 0.0116172
0.587422 -0.0548438 -0.101201 0.375549 19.1401 14.6399 0.0115934
0.623203 -0.122344 -0.101865 0.364325 19.2504 14.5505 0.0117921
0.657656 -0.298594 -0.108205 0.364399 19.253 14.6095 0.011839
0.643516 -0.219062 -0.107933 0.365246 19.3588 14.5608 0.011727
0.605547 -0.0954688 -0.108629 0.366595 19.1928 14.5268 0.0115605
0.578828 -0.043125 -0.110172 0.364258 19.1902 14.5067 0.0116465
0.541328 -0.0346875 -0.10709 0.369812 19.2905 14.5633 0.0118317
0.506406 -0.0328125 -0.106394 0.372489 19.3411 14.5718 0.0118684
0.474219 -0.03 -0.106982 0.369575 19.3084 14.6151 0.011836
0.447578 -0.0295313 -0.103577 0.385585 19.3113 14.6017 0.0118581
0.409219 -0.0302344 -0.104849 0.388207 19.3328 14.657 0.0121271
0.366797 -0.0289063 -0.102201 0.405167 19.3772 14.7205 0.0121931
0.343125 -0.0300781 -0.101142 0.405728 19.3809 14.7898 0.0119942
0.312734 -0.0307031 -0.0996723 0.417026 19.4094 14.8504 0.0121489
0.280938 -0.0297656 -0.0955955 0.413048 19.4121 14.7994 0.0121864
0.25 -0.0292969 -0.096609 0.427367 19.4134 14.8889 0.0120325
0.210859 -0.0260156 -0.0996212 0.431221 19.3772 14.8834 0.0120718
0.185 -0.0257813 -0.0971655 0.445552 19.3371 14.8971 0.0121525
0.138828 -0.0253125 -0.0966883 0.450888 19.4281 14.8989 0.0122664
0.108203 -0.0235938 -0.095862 0.463122 19.3919 14.8945 0.0121536
0.0790625 -0.0251563 -0.0951002 0.470693 19.4059 14.9326 0.0122942
0.0435938 -0.0235938 -0.0912171 0.473589 19.4152 14.9924 0.0121692
0.0121875 -0.0236719 -0.0905936 0.494254 19.3395 14.9745 0.0118886
-0.0175781 -0.0230469 -0.0899968 0.505515 19.2931 15.1368 0.0121423
0.00101563 -0.0239844 -0.0872948 0.509919 19.3338 15.1281 0.0119366
0.0421094 -0.0271094 -0.0835163 0.50618 19.352 15.0495 0.0120732
0.066875 -0.02625 -0.087071 0.504695 19.3962 15.1233 0.0120072
0.108906 -0.028125 -0.0885406 0.492838 19.446 15.1037 0.0119349
0.138125 -0.0308594 -0.0853316 0.488085 19.4686 15.0277 0.012132
0.178437 -0.0309375 -0.0877979 0.486106 19.3089 15.0606 0.0120699
0.210469 -0.0323437 -0.0857237 0.483799 19.371 15.0512 0.0119167
0.237891 -0.0330469 -0.0821758 0.471661 19.488 14.9871 0.0122562
0.269062 -0.0314063 -0.0846877 0.463704 19.4263 14.8939 0.0123642
0.310078 -0.0346875 -0.0864392 0.459058 19.469 14.9087 0.0121951
0.332422 -0.0357031 -0.0873214 0.451905 19.3445 14.8683 0.0120154
0.377109 -0.0379688 -0.0859975 0.444337 19.4397 14.9555 0.0120975
0.410078 -0.0365625 -0.0857957 0.437255 19.3152 14.8299 0.0121491
0.433281 -0.0392969 -0.0877707 0.422505 19.3288 14.8517 0.0121012
0.474687 -0.0395313 -0.0890735 0.419169 19.3967 14.7302 0.0121107
0.500859 -0.0409375 -0.0930687 0.401399 19.4026 14.7614 0.0119573
0.5425 -0.0414844 -0.0962279 0.389112 19.235 14.6987 0.0118847
0.569688 -0.0430469 -0.0980518 0.375818 19.281 14.5339 0.0118317
0.601875 -0.0716406 -0.0995104 0.371282 19.2879 14.5995 0.0117653
0.633984 -0.1775 -0.0985021 0.366513 19.1803 14.6216 0.0119137
0.667578 -0.328125 -0.100316 0.363728 19.1939 14.6169 0.0118771
0.6275 -0.153984 -0.103662 0.363642 19.3275 14.5535 0.0117831
0.593828 -0.0654688 -0.107809 0.363632 19.2459 14.5326 0.0116998
0.554688 -0.0401562 -0.106392 0.372363 19.3779 14.5944 0.0117986
0.526563 -0.0332031 -0.107032 0.363749 19.2284 14.6112 0.0118566
0.496563 -0.0321875 -0.106594 0.373916 19.2593 14.7165 0.0118316
0.465078 -0.03 -0.105364 0.380539 19.2486 14.6885 0.0119201
0.423516 -0.03125 -0.103823 0.385442 19.3796 14.7538 0.0120399
0.395156 -0.0322656 -0.100586 0.394983 19.3461 14.7415 0.0119826
0.367812 -0.0309375 -0.0994507 0.40308 19.4269 14.7747 0.0119643
0.334688 -0.0296875 -0.101451 0.406112 19.3395 14.723 0.0121993
0.291875 -0.0252344 -0.174709 0.342838 18.6512 14.6589 0.00589307
0.254297 -0.02375 -0.0347202 0.447785 18.313 13.4755 0.000866159
0.23 -0.0247656 -0.0178959 0.329106 18.686 16.1719 0.000715901
0.195859 -0.0255469 -0.0664922 0.441895 19.2208 14.8677 0.00597793
0.167344 -0.0263281 -0.0800354 0.452584 19.4759 14.9867 0.0112666
0.129453 -0.0252344 -0.0881537 0.45814 19.4578 14.9094 0.0120644
0.090625 -0.0255469 -0.0882475 0.475797 19.3639 14.9983 0.0121984
0.0592188 -0.0248438 -0.087096 0.480171 19.3458 15.0387 0.0119197
0.0339062 -0.0230469 -0.085455 0.493651 19.3276 15.0124 0.0118608
-0.0075 -0.0213281 -0.0819056 0.504994 19.3785 15.069 0.0119565
-0.0225781 -0.0236719 -0.0787112 0.514073 19.3712 15.143 0.0117401
0.021875 -0.0259375 -0.0743926 0.516166 19.3951 15.0534 0.0117363
0.05375 -0.0273438 -0.0760288 0.51403 19.391 15.1089 0.0118017
0.0817969 -0.0292969 -0.0720908 0.509395 19.3897 15.0822 0.011626
0.115078 -0.03 -0.0685429 0.50102 19.3326 15.1757 0.0111445
0.147031 -0.0308594 -0.0552708 0.492001 19.3055 15.0133 0.00978522
0.184375 -0.0315625 -0.0538507 0.484671 19.3013 15.0877 0.00841881
0.214063 -0.0324219 -0.057022 0.478272 19.2821 15.0321 0.00907673
0.246875 -0.0317969 -0.0636903 0.475556 19.3839 14.9568 0.0113184
0.276328 -0.0342187 -0.0847352 0.46684 19.5036 14.973 0.0125567
0.310469 -0.0338281 -0.0945236 0.453886 19.4953 14.8772 0.0126765
0.341484 -0.0360938 -0.096657 0.440969 19.4021 14.8654 0.012456
0.380781 -0.0371875 -0.0960071 0.433636 19.4753 14.8717 0.0126882
0.405859 -0.0382031 -0.0953236 0.4299 19.4144 14.8711 0.012449
0.448594 -0.0389844 -0.0921312 0.424981 19.4459 14.8476 0.0124771
0.477969 -0.0390625 -0.0920583 0.413882 19.353 14.676 0.0122766
0.503203 -0.0402344 -0.0912282 0.397467 19.3583 14.715 0.0120473
0.547656 -0.0416406 -0.0915345 0.386199 19.4094 14.6827 0.0118234
0.574141 -0.0454688 -0.0931957 0.381925 19.2717 14.6333 0.0119232
0.609375 -0.0794531 -0.0949926 0.373048 19.3093 14.5131 0.0121782
0.641563 -0.193984 -0.0985411 0.373715 19.306 14.6508 0.0118624
0.661484 -0.30125 -0.105967 0.363064 19.222 14.4929 0.0116733
0.62 -0.138984 -0.102972 0.364419 19.3797 14.5696 0.0118992
0.591797 -0.0610938 -0.101629 0.365597 19.2536 14.6288 0.0119513
0.563438 -0.0379688 -0.0951337 0.371482 19.3053 14.6313 0.0115089
0.526953 -0.0342187 -0.0987934 0.376109 19.3098 14.6409 0.0117791
0.494297 -0.0344531 -0.0962412 0.374616 19.3384 14.6581 0.0118374
0.459688 -0.0300781 -0.097247 0.388707 19.3462 14.6714 0.0117653
0.424063 -0.0278906 -0.0969173 0.395152 19.4597 14.7382 0.0120939
0.393047 -0.03125 -0.0907739 0.401571 19.4261 14.7963 0.0122213
0.359375 -0.0292188 -0.093176 0.402796 19.4126 14.7553 0.0120126
0.323281 -0.0303906 -0.0895462 0.419866 19.4235 14.7602 0.0120762
0.292109 -0.0289844 -0.0879042 0.422469 19.4288 14.8498 0.0118637
0.253437 -0.029375 -0.0936662 0.430806 19.4203 14.8571 0.0120188
0.228125 -0.0290625 -0.0926259 0.434769 19.4194 14.9768 0.0121064
0.193047 -0.0289063 -0.0900272 0.447955 19.3526 14.9059 0.0121187
0.164688 -0.0267969 -0.09008 0.456326 19.425 15.038 0.0120683
0.122813 -0.0267969 -0.0885674 0.460829 19.4707 14.9431 0.0121125
0.0925781 -0.0233594 -0.0873144 0.473325 19.3941 14.9804 0.011991
0.05625 -0.0236719 -0.0869872 0.479421 19.3094 15.0225 0.0120232
0.0242969 -0.0235938 -0.0887107 0.49088 19.2946 15.0481 0.0121632
-0.01 -0.0216406 -0.0848221 0.502094 19.3555 15.0671 0.0120328
-0.0144531 -0.0245313 -0.0820965 0.513425 19.4495 15.0961 0.0122792
0.0154687 -0.0260156 -0.080963 0.514866 19.3693 15.0529 0.0120965
0.0517969 -0.0264844 -0.0790411 0.506653 19.4113 15.0888 0.0121208
0.0896875 -0.0269531 -0.0772373 0.507859 19.3778 15.0797 0.0120391
0.121484 -0.0297656 -0.079204 0.504213 19.4517 15.0519 0.0122177
0.156172 -0.030625 -0.0779153 0.493612 19.3996 15.0365 0.0118304
0.185469 -0.031875 -0.0812361 0.4883 19.4188 15.088 0.0120972
0.213438 -0.0327344 -0.0832099 0.481516 19.397 15.0103 0.0121504
0.251563 -0.0324219 -0.0827456 0.469625 19.5015 14.9584 0.0124483
0.281406 -0.0327344 -0.0820456 0.462926 19.418 14.9717 0.0121279
0.308906 -0.035625 -0.0819325 0.463731 19.4772 14.9505 0.01242
0.353281 -0.0363281 -0.0829654 0.454547 19.3891 14.9437 0.0123017
0.368203 -0.0360938 -0.0832823 0.448773 19.3675 14.9648 0.0123439
0.360859 -0.0357031 -0.083053 0.444913 19.371 14.8656 0.0122006
0.366719 -0.0334375 -0.082917 0.440694 19.4379 14.8818 0.0120051
0.371016 -0.0349219 -0.0838276 0.448037 19.4277 14.9115 0.0122622
0.367969 -0.0357813 -0.0865338 0.443097 19.4104 14.9391 0.0121362
0.367109 -0.0354688 -0.0873718 0.437451 19.4228 14.8371 0.0121565
0.369766 -0.0348437 -0.0856869 0.44429 19.4691 14.9519 0.0123119
0.365078 -0.0319531 -0.0834939 0.440957 19.3746 14.8858 0.0121557