Folder: DaFy_P23/scripts/CV_XRD/data/ascii (part 2)

File: I20180835_236_CV_XRD.dat
# I20180835 #236 CV with XRD
# Potential / V, Current Density / mA/cm^2, Strain ip / %, Strain oop / %, d ip / nm, d oop / nm, Intensity (area ip)
0.358828 -0.0295313 -0.132438 0.394797 19.5234 14.6585 0.0105961
0.376953 -0.0294531 -0.13597 0.393425 19.4324 14.7076 0.0107846
0.42 -0.0335937 -0.137733 0.383947 19.5794 14.6672 0.0106446
0.444141 -0.0369531 -0.140185 0.380434 19.4532 14.6541 0.0108378
0.473516 -0.0389844 -0.142296 0.36865 19.3714 14.6475 0.0104644
0.516875 -0.0382813 -0.150318 0.359789 19.3826 14.5977 0.0105731
0.551406 -0.0407812 -0.15406 0.346432 19.25 14.5106 0.0102717
0.578047 -0.0454688 -0.155157 0.339644 19.2603 14.4812 0.00991773
0.611172 -0.0801562 -0.162493 0.332186 19.2482 14.4246 0.0100996
0.649844 -0.214141 -0.164898 0.331434 19.1416 14.4273 0.00983866
0.651094 -0.238047 -0.172899 0.328183 19.0785 14.3741 0.00985558
0.618906 -0.0921875 -0.171384 0.329909 19.1214 14.4379 0.01009
0.585234 -0.0478125 -0.169437 0.329075 19.1604 14.458 0.0100133
0.546563 -0.0339844 -0.171773 0.330878 19.2515 14.4113 0.00994774
0.506875 -0.0300781 -0.169518 0.333391 19.2302 14.416 0.0101892
0.479219 -0.0322656 -0.168016 0.342813 19.2035 14.498 0.0101932
0.448047 -0.0303906 -0.164724 0.344883 19.2689 14.5694 0.0101587
0.420703 -0.0296094 -0.163483 0.348555 19.3187 14.5193 0.0104769
0.384844 -0.0296094 -0.163691 0.358705 19.3952 14.586 0.0105953
0.346172 -0.0302344 -0.158439 0.372648 19.4402 14.7018 0.0104724
0.312969 -0.0283594 -0.158197 0.384561 19.3561 14.6128 0.0105753
0.293125 -0.0275 -0.1552 0.383786 19.3443 14.6865 0.0106081
0.252188 -0.0275781 -0.15353 0.390731 19.374 14.6578 0.0106378
0.222109 -0.025 -0.153612 0.40009 19.3685 14.7731 0.0106799
0.187656 -0.0241406 -0.151722 0.415336 19.3586 14.6691 0.0107653
0.149453 -0.0221094 -0.14859 0.416282 19.5194 14.8316 0.0107159
0.119609 -0.0242969 -0.143747 0.428332 19.3906 14.7659 0.0105841
0.0879687 -0.023125 -0.14137 0.448483 19.3489 14.8176 0.0106421
0.0625 -0.0230469 -0.139072 0.462425 19.4474 14.7804 0.0109937
0.0145313 -0.0221875 -0.137131 0.465584 19.458 14.8814 0.0107296
-0.0141406 -0.0217188 -0.132493 0.48713 19.4242 14.9686 0.0108679
-0.011875 -0.025 -0.130925 0.488047 19.3685 15.0129 0.0105543
0.0205469 -0.0251563 -0.130675 0.489906 19.3899 15.0045 0.0105107
0.0678125 -0.0267187 -0.131706 0.487422 19.4012 14.9409 0.010838
0.0898438 -0.0261719 -0.127959 0.47247 19.4971 14.9095 0.0109114
0.124766 -0.0298438 -0.126976 0.465579 19.5124 14.8302 0.0107345
0.167266 -0.0291406 -0.130317 0.463593 19.4231 14.853 0.0108273
0.189531 -0.0299219 -0.126701 0.456418 19.4826 14.8535 0.0108749
0.217656 -0.0307031 -0.131685 0.444152 19.3939 14.8118 0.0108257
0.256094 -0.0323437 -0.13237 0.431377 19.4031 14.756 0.0104916
0.294531 -0.0328125 -0.134982 0.426571 19.44 14.7872 0.0107538
0.322734 -0.0341406 -0.135983 0.423673 19.4946 14.7802 0.0110234
0.368047 -0.0357813 -0.132546 0.410925 19.3648 14.7212 0.0109067
0.394141 -0.0353906 -0.137078 0.395469 19.4465 14.6195 0.0105848
0.426875 -0.0385156 -0.141598 0.396594 19.4212 14.725 0.0107049
0.456797 -0.0403906 -0.141052 0.387337 19.3946 14.6963 0.0107709
0.496641 -0.0402344 -0.147367 0.370343 19.2952 14.5356 0.0105071
0.523984 -0.0384375 -0.152488 0.352352 19.3815 14.5778 0.0105831
0.557266 -0.0410156 -0.15529 0.34761 19.2225 14.4046 0.0102181
0.593359 -0.0516406 -0.159732 0.333237 19.1005 14.4704 0.00990167
0.628594 -0.106484 -0.160764 0.329313 19.2799 14.4207 0.00997727
0.671484 -0.285781 -0.166041 0.330187 19.2357 14.4211 0.0100638
0.637344 -0.168828 -0.170543 0.332884 19.1949 14.3941 0.0100646
0.600859 -0.0664062 -0.171281 0.335532 19.1778 14.4351 0.0100059
0.568203 -0.0407031 -0.169966 0.335285 19.048 14.4205 0.00988118
0.529687 -0.031875 -0.167569 0.341175 19.1827 14.4373 0.00986429
0.498984 -0.0302344 -0.166073 0.335806 19.165 14.4446 0.0100074
0.469453 -0.0275781 -0.245503 0.279511 18.3041 14.1833 0.00526634
0.433125 -0.0257031 -0.117944 0.366141 18.6266 13.3844 0.000684585
0.406562 -0.0264844 -0.0272364 0.434201 17.0213 14.0888 0.000612408
0.370625 -0.0271875 -0.130692 0.367052 19.273 14.4108 0.0051526
0.333359 -0.0286719 -0.140231 0.383722 19.42 14.6488 0.00999601
0.303125 -0.0285938 -0.149182 0.379847 19.4096 14.5917 0.0104333
0.263906 -0.0261719 -0.147937 0.395708 19.4503 14.7321 0.0107057
0.236484 -0.0266406 -0.145226 0.401888 19.3868 14.7241 0.0104036
0.203125 -0.025625 -0.142077 0.41824 19.4308 14.7203 0.0106557
0.172891 -0.0246875 -0.139266 0.425443 19.4269 14.7767 0.0105918
0.138984 -0.024375 -0.137846 0.432644 19.4858 14.8392 0.0105298
0.108125 -0.0233594 -0.134844 0.444805 19.4846 14.7988 0.0106752
0.0749219 -0.023125 -0.131301 0.458628 19.3527 14.8206 0.0107133
0.0454688 -0.0191406 -0.123845 0.470864 19.4098 14.9147 0.01051
-0.0015625 -0.0190625 -0.119704 0.491084 19.3584 15.0018 0.00987876
-0.0280469 -0.0211719 -0.0990079 0.49732 19.3626 15.0006 0.00868606
0.0114844 -0.0219531 -0.0984032 0.497017 19.3631 15.0203 0.00731594
0.0442969 -0.0255469 -0.0936948 0.493254 19.3215 15.0641 0.00835829
0.0799219 -0.0240625 -0.106341 0.482761 19.5116 14.977 0.00995541
0.112891 -0.0270312 -0.129329 0.480373 19.4117 14.8649 0.0107419
0.136563 -0.0298438 -0.13698 0.45897 19.5593 14.9126 0.0110908
0.173203 -0.0289063 -0.137858 0.452172 19.4261 14.8059 0.0110471
0.205781 -0.0296094 -0.141005 0.447241 19.4288 14.8152 0.0110592
0.241484 -0.0303906 -0.136731 0.440554 19.3476 14.8757 0.0110249
0.279531 -0.0322656 -0.134071 0.438623 19.4152 14.8063 0.010929
0.304688 -0.0314844 -0.13222 0.434366 19.3708 14.7925 0.0108853
0.336016 -0.0339844 -0.131644 0.423665 19.3959 14.7919 0.0107286
0.378984 -0.0332031 -0.129214 0.413318 19.3992 14.7568 0.01071
0.409453 -0.0349219 -0.131605 0.398039 19.5052 14.7951 0.0107241
0.445234 -0.0375781 -0.135182 0.391658 19.4372 14.6216 0.010572
0.479141 -0.0396875 -0.141858 0.383957 19.3981 14.5701 0.0107048
0.508672 -0.0413281 -0.149206 0.364659 19.3151 14.633 0.0107211
0.538594 -0.0405469 -0.153606 0.352035 19.207 14.5711 0.0105668
0.572734 -0.0422656 -0.155172 0.346536 19.2521 14.4732 0.0102856
0.614766 -0.0642969 -0.161664 0.338895 19.148 14.3731 0.0101546
0.645078 -0.151172 -0.16437 0.332517 19.182 14.3425 0.0103508
0.658984 -0.280938 -0.16508 0.334585 19.2708 14.4063 0.0102297
0.632344 -0.116406 -0.168833 0.338584 19.1422 14.3176 0.0103467
0.591719 -0.0525781 -0.169484 0.334952 19.2244 14.4428 0.0101517
0.559688 -0.0360156 -0.167596 0.334266 19.2449 14.3195 0.0102774
0.5275 -0.0319531 -0.168602 0.340628 19.2108 14.4078 0.0102194
0.491016 -0.0320312 -0.166846 0.344116 19.3503 14.5249 0.0103579
0.458672 -0.028125 -0.163861 0.345185 19.3158 14.4845 0.0103385
0.418281 -0.0307031 -0.165197 0.353639 19.2564 14.5439 0.0106859
0.397031 -0.0304687 -0.161654 0.372033 19.4239 14.637 0.0106408
0.360078 -0.0283594 -0.159668 0.373036 19.3273 14.6743 0.0109629
0.327734 -0.0296875 -0.154814 0.382233 19.4435 14.6404 0.0108404
0.293359 -0.0290625 -0.153189 0.398536 19.4129 14.661 0.0108056
0.253125 -0.0285156 -0.149741 0.397732 19.4197 14.6869 0.0107318
0.225625 -0.0264062 -0.153676 0.411672 19.4715 14.7424 0.0109654
0.193594 -0.0261719 -0.151915 0.421576 19.3602 14.8327 0.0108412
0.157109 -0.0254688 -0.15058 0.425497 19.3711 14.7894 0.0108854
0.125781 -0.02375 -0.146216 0.437347 19.4234 14.7458 0.0110623
0.0927344 -0.0253125 -0.141151 0.443541 19.4071 14.8277 0.0108989
0.0619531 -0.0242969 -0.140636 0.459576 19.5325 14.8052 0.0110686
0.0253125 -0.0240625 -0.137986 0.470957 19.4534 14.8342 0.0112847
-0.0046875 -0.0232031 -0.134483 0.486651 19.41 14.9056 0.0110134
-0.0179688 -0.0240625 -0.131945 0.494004 19.4309 15.0004 0.0110004
0.0125781 -0.0260937 -0.132972 0.493759 19.3355 14.8609 0.0110976
0.0519531 -0.0274219 -0.128405 0.484388 19.4755 14.994 0.0108381
0.0825781 -0.0261719 -0.131838 0.482129 19.3946 14.8543 0.0106299
0.117734 -0.0285938 -0.130821 0.479879 19.4151 14.9049 0.0111497
0.152891 -0.0271875 -0.130397 0.473156 19.4419 14.9271 0.0109217
0.183594 -0.0307812 -0.130869 0.454016 19.4759 14.8815 0.0111258
0.215234 -0.029375 -0.131933 0.448191 19.407 14.8622 0.0110352
0.250312 -0.030625 -0.134481 0.442252 19.4606 14.7525 0.0111348
0.287656 -0.0316406 -0.13654 0.433277 19.5227 14.8378 0.0106761
0.318359 -0.0332031 -0.136119 0.422957 19.3164 14.8411 0.010877
0.352734 -0.0347656 -0.137727 0.411313 19.5324 14.7743 0.0108439
0.372031 -0.0315625 -0.140021 0.406576 19.3888 14.6746 0.0110351
0.367031 -0.0329687 -0.139425 0.395817 19.3812 14.6131 0.0110635
0.360859 -0.03375 -0.137448 0.401017 19.4897 14.7054 0.0109452
0.371641 -0.034375 -0.143814 0.395201 19.4576 14.7112 0.0108203
0.369922 -0.0311719 -0.139985 0.401248 19.498 14.6993 0.0109769
0.375391 -0.0328125 -0.14087 0.400209 19.3164 14.7687 0.0109532
0.371328 -0.0325 -0.142403 0.39696 19.3885 14.7237 0.0107965
0.36375 -0.0328125 -0.142105 0.394326 19.4226 14.7583 0.0108806
0.365469 -0.031875 -0.143001 0.398284 19.4846 14.7046 0.0109715
0.360391 -0.0330469 -0.145402 0.399622 19.4187 14.7087 0.0110325
0.365391 -0.0314844 -0.146409 0.394204 19.5175 14.6807 0.0109697
0.369688 -0.031875 -0.14428 0.392051 19.3902 14.6506 0.0108957
0.366719 -0.031875 -0.145155 0.395353 19.5199 14.7018 0.0106243
0.368906 -0.0326562 -0.142656 0.390392 19.3915 14.6794 0.0107311
0.369375 -0.0311719 -0.141174 0.392604 19.5032 14.7679 0.0108736
0.367109 -0.03375 -0.144429 0.398181 19.3806 14.6527 0.0108423
0.367344 -0.0335156 -0.141773 0.393048 19.3923 14.6659 0.0109742
0.369297 -0.0315625 -0.143049 0.390801 19.4304 14.7611 0.0109391
0.373906 -0.0325781 -0.14333 0.388501 19.4811 14.6727 0.0109049
0.375703 -0.0321094 -0.144426 0.395887 19.4627 14.75 0.0109219
0.365859 -0.0327344 -0.144271 0.391889 19.5322 14.6698 0.0108183
0.369609 -0.0325781 -0.144235 0.386728 19.3818 14.6182 0.0111276
0.374219 -0.0330469 -0.143477 0.390737 19.4509 14.7152 0.0109632
0.367031 -0.0314844 -0.143628 0.396868 19.4201 14.6798 0.010953
0.359453 -0.030625 -0.145213 0.396114 19.4346 14.6589 0.0106724

File: I20180835_243_CV_XRD.dat
# I20180835 #243 CV with XRD
# Potential / V, Current Density / mA/cm^2, Strain ip / %, Strain oop / %, d ip / nm, d oop / nm, Intensity (area ip)
0.739141 -0.0271094 -0.12965 0.333765 19.2559 14.4499 0.00831828
0.775703 -0.0296094 -0.130926 0.328513 19.2538 14.4474 0.00847021
0.803125 -0.0310156 -0.129906 0.31547 19.24 14.4516 0.00837107
0.836016 -0.0347656 -0.132611 0.30974 19.2195 14.5352 0.00835967
0.867656 -0.0358594 -0.132931 0.303171 19.2276 14.4715 0.00845839
0.904766 -0.0380469 -0.131202 0.290187 19.1034 14.4829 0.00827629
0.944531 -0.0390625 -0.1349 0.277072 19.1429 14.3323 0.00802648
0.972969 -0.0400781 -0.139655 0.270589 19.0786 14.2221 0.00783938
1.00484 -0.0503125 -0.143371 0.257305 19.0159 14.2681 0.00807002
1.03641 -0.065625 -0.150197 0.251042 19.1025 14.234 0.00786068
1.06727 -0.105547 -0.151711 0.243355 18.9246 14.2645 0.00769615
1.10828 -0.178672 -0.159228 0.246775 19.0282 14.2714 0.00786235
1.13164 -0.267031 -0.160909 0.241056 19.0411 14.2727 0.00773997
1.16727 -0.367031 -0.166061 0.238168 19.0418 14.2418 0.00770476
1.19844 -0.442188 -0.164235 0.232091 19.0461 14.1632 0.00775792
1.2068 -0.349297 -0.168007 0.236146 19.1379 14.2503 0.00779968
1.17398 -0.225469 -0.166385 0.233416 19.2063 14.3401 0.00804665
1.14531 -0.147422 -0.165817 0.234235 19.0737 14.3099 0.00784688
1.10594 -0.0921094 -0.167134 0.238875 19.1584 14.3029 0.00818745
1.07453 -0.0639062 -0.167111 0.234363 19.1893 14.1974 0.00797339
1.03812 -0.0450781 -0.165224 0.239198 19.1608 14.2739 0.00789993
1.00641 -0.0357813 -0.169475 0.239459 19.2055 14.2325 0.00808964
0.9675 -0.0324219 -0.169103 0.241215 19.1115 14.275 0.00806305
0.939375 -0.0311719 -0.163219 0.248316 19.0734 14.3434 0.00793714
0.897422 -0.0296094 -0.164669 0.257207 19.0615 14.2701 0.00824431
0.871563 -0.0285156 -0.163998 0.260381 18.9831 14.365 0.00814373
0.835938 -0.0278125 -0.162612 0.280896 19.1818 14.2387 0.00835318
0.806875 -0.0277344 -0.162808 0.285167 19.0917 14.3127 0.00851665
0.77125 -0.0267187 -0.15929 0.300104 19.1295 14.3182 0.00834836
0.739375 -0.02875 -0.159436 0.302092 19.2073 14.4479 0.00834151
0.707813 -0.0274219 -0.155818 0.309296 19.0409 14.396 0.0084687
0.677266 -0.0282031 -0.153558 0.326708 19.1761 14.5567 0.00846139
0.644297 -0.0242969 -0.147002 0.330937 19.2948 14.5364 0.00857613
0.612969 -0.0254688 -0.145365 0.346859 19.1873 14.5003 0.00850671
0.579766 -0.0246875 -0.143396 0.35971 19.1753 14.5253 0.0085936
0.544297 -0.0253125 -0.139315 0.375819 19.2555 14.5949 0.00856865
0.509297 -0.0245313 -0.134677 0.394497 19.294 14.5881 0.00865638
0.473594 -0.0228125 -0.127188 0.408604 19.3077 14.7454 0.00900936
0.442031 -0.0245313 -0.127028 0.423354 19.2708 14.782 0.00893085
0.416172 -0.0226562 -0.121497 0.439156 19.2871 14.7851 0.00891644
0.393906 -0.0264062 -0.114917 0.460932 19.3023 14.8796 0.00860396
0.424063 -0.0277344 -0.111795 0.452466 19.2507 14.7908 0.00876158
0.467891 -0.0278906 -0.110239 0.44228 19.3485 14.8495 0.00886941
0.488828 -0.0282031 -0.115723 0.441738 19.3209 14.7995 0.00885757
0.535781 -0.0279688 -0.114816 0.424313 19.2828 14.7411 0.00870586
0.562734 -0.030625 -0.116678 0.420523 19.3745 14.8083 0.00880755
0.587578 -0.0292969 -0.112249 0.402717 19.3337 14.6568 0.00882487
0.624609 -0.0317188 -0.116214 0.388551 19.3966 14.766 0.00884681
0.660156 -0.0329687 -0.117077 0.372161 19.2661 14.6594 0.00881083
0.691641 -0.0325781 -0.123746 0.373987 19.1754 14.5627 0.00890098
0.735391 -0.0330469 -0.12484 0.359667 19.1319 14.5674 0.00852467
0.759531 -0.0326562 -0.125484 0.343428 19.3169 14.5274 0.00868587
0.790781 -0.0332812 -0.128122 0.336711 19.1624 14.5272 0.00862414
0.818906 -0.0367969 -0.132578 0.32226 19.303 14.4654 0.00880264
0.860391 -0.0382031 -0.131738 0.302831 19.1371 14.5174 0.008553
0.893516 -0.0383594 -0.131839 0.293708 19.3142 14.5037 0.00825821
0.923828 -0.0383594 -0.134534 0.276416 19.1402 14.3169 0.0082328
0.952422 -0.04 -0.142127 0.265754 19.11 14.3062 0.00819254
0.992969 -0.0480469 -0.144306 0.260168 19.0361 14.3111 0.00814885
1.02258 -0.0613281 -0.151455 0.253294 18.9803 14.3144 0.00819212
1.0625 -0.0939062 -0.15663 0.246169 19.0527 14.2348 0.00819775
1.09141 -0.155078 -0.160751 0.242086 18.944 14.1491 0.00792203
1.12547 -0.240937 -0.161916 0.244428 19.0322 14.2291 0.00788504
1.16531 -0.342422 -0.167041 0.241942 19.1404 14.1216 0.0079568
1.19656 -0.425781 -0.166134 0.232698 19.1864 14.3024 0.00794425
1.20719 -0.393125 -0.168069 0.230063 19.0679 14.1945 0.00828609
1.17578 -0.247969 -0.169989 0.23029 19.2822 14.2152 0.00813915
1.14641 -0.163125 -0.168216 0.234817 19.0276 14.1859 0.00820915
1.11187 -0.105938 -0.172865 0.226554 19.0997 14.1951 0.00812098
1.08094 -0.0680469 -0.169593 0.229864 19.06 14.3062 0.00831559
1.05688 -0.0496094 -0.167185 0.231649 19.2087 14.257 0.00808466
1.01453 -0.0400781 -0.170347 0.23942 19.1648 14.2391 0.00809065
0.978906 -0.0358594 -0.170346 0.249866 19.0465 14.2025 0.00822398
0.944688 -0.0323437 -0.170292 0.244436 19.0276 14.2886 0.00794557
0.909062 -0.03125 -0.167576 0.257709 18.9344 14.3771 0.0080614
0.882969 -0.0288281 -0.169636 0.261277 19.0739 14.2697 0.00815018
0.856406 -0.0280469 -0.166438 0.268447 19.085 14.3139 0.00848364
0.82 -0.0289844 -0.163233 0.275649 19.0994 14.3617 0.00841965
0.786172 -0.0283594 -0.163709 0.292898 18.9874 14.3148 0.0082316
0.751484 -0.0278125 -0.162874 0.293494 19.1119 14.3682 0.00845682
0.712969 -0.0254688 -0.161932 0.308129 19.0404 14.4501 0.00828711
0.682734 -0.0248438 -0.1589 0.319694 19.2512 14.4951 0.0085525
0.657031 -0.0257031 -0.154167 0.331112 19.1694 14.4612 0.00851513
0.620078 -0.0260156 -0.15015 0.349011 19.2501 14.5071 0.00851282
0.58 -0.0258594 -0.147342 0.360526 19.1903 14.5522 0.00859188
0.547266 -0.0253125 -0.140338 0.371131 19.2139 14.5983 0.00870632
0.512031 -0.0235938 -0.140352 0.390847 19.4077 14.7049 0.00902117
0.483906 -0.0229687 -0.133044 0.403755 19.1753 14.5799 0.00883433
0.456875 -0.0234375 -0.207274 0.345574 18.7141 14.5217 0.00558674
0.425156 -0.0221875 -0.124239 0.426992 19.4873 14.8097 0.00306744
0.385703 -0.0245313 0.0468698 0.731804 17.2857 18.1353 0.000326484
0.425547 -0.0267969 -0.0882573 0.453838 18.7999 14.5106 0.00173952
0.466406 -0.0277344 -0.112135 0.444519 19.1741 14.7511 0.0060945
0.48625 -0.0290625 -0.113494 0.435227 19.2837 14.7661 0.00824616
0.523672 -0.0283594 -0.114824 0.432084 19.354 14.7571 0.00850211
0.559609 -0.0310156 -0.116048 0.417926 19.205 14.7482 0.00853
0.592344 -0.0305469 -0.117758 0.39982 19.2923 14.6788 0.00857414
0.625703 -0.0292969 -0.116557 0.392037 19.2547 14.6673 0.00852324
0.659375 -0.0317188 -0.119643 0.377887 19.3371 14.5832 0.00840847
0.686406 -0.0301562 -0.120411 0.361133 19.246 14.6843 0.00827447
0.727031 -0.0326562 -0.119902 0.358259 19.1243 14.5081 0.0082574
0.760391 -0.0327344 -0.122411 0.337995 19.249 14.5477 0.00823279
0.789219 -0.0333594 -0.126037 0.335967 19.2541 14.4837 0.00796292
0.817266 -0.0355469 -0.124383 0.318301 19.2422 14.4475 0.00656552
0.871719 -0.0360156 -0.13102 0.304756 19.1036 14.4013 0.00548009
0.889531 -0.0379688 -0.130513 0.284863 19.1396 14.5539 0.00522476
0.921953 -0.0386719 -0.135845 0.278199 19.1305 14.2138 0.00620741
0.951328 -0.0416406 -0.140741 0.2637 19.0275 14.3175 0.00782366
0.987734 -0.0434375 -0.156383 0.269523 19.0903 14.2312 0.00885869
1.02547 -0.0591406 -0.165903 0.265783 18.9959 14.3053 0.00909136
1.06305 -0.0874219 -0.168177 0.247257 19.0478 14.2818 0.00906297
1.09008 -0.148672 -0.171073 0.243307 19.0064 14.2385 0.00872516
1.12898 -0.233203 -0.165308 0.233899 19.1664 14.2078 0.00867956
1.15977 -0.335703 -0.170387 0.229158 18.9953 14.2106 0.00826232
1.19078 -0.420547 -0.168295 0.232783 19.1237 14.2094 0.00826329
1.22039 -0.407031 -0.169035 0.234689 19.0515 14.2605 0.00793496
1.18023 -0.2525 -0.170437 0.230092 19.1357 14.2377 0.00800709
1.14602 -0.165859 -0.174697 0.234421 19.0624 14.2247 0.00809924
1.11742 -0.106797 -0.174401 0.238169 19.1238 14.1939 0.00818966
1.08602 -0.0692969 -0.169925 0.23237 19.0666 14.2646 0.00816421
1.04133 -0.0485937 -0.172934 0.231473 18.9963 14.2093 0.00841799
1.01758 -0.0398438 -0.172569 0.240229 19.0843 14.1749 0.00833463
0.980781 -0.0355469 -0.170215 0.242123 19.0805 14.1945 0.0085602
0.950937 -0.0342187 -0.172695 0.241488 19.0932 14.2376 0.00847811
0.910781 -0.0297656 -0.17435 0.253995 18.9198 14.2 0.00858956
0.879062 -0.0298438 -0.172599 0.253672 19.1404 14.3276 0.00867428
0.846094 -0.0264844 -0.169458 0.264801 19.0163 14.3172 0.00852374
0.806016 -0.0300781 -0.170218 0.287426 19.1212 14.3001 0.00873168
0.780391 -0.026875 -0.165837 0.289455 19.1092 14.3282 0.00871639
0.737578 -0.0289063 -0.166172 0.297939 19.1639 14.348 0.00869853
0.712344 -0.0288281 -0.162994 0.317247 19.0359 14.3782 0.00870464
0.676563 -0.0266406 -0.159517 0.323723 19.1371 14.4858 0.00869231
0.647188 -0.0275 -0.155376 0.329834 19.1291 14.293 0.00870963
0.611719 -0.0260937 -0.153225 0.344605 19.161 14.3782 0.00882779
0.576484 -0.0239063 -0.153094 0.362835 19.2383 14.5674 0.00916761
0.546172 -0.0257031 -0.145982 0.373971 19.2977 14.5256 0.00928053
0.509844 -0.0240625 -0.141976 0.387839 19.3441 14.559 0.00930442
0.47875 -0.0232031 -0.135874 0.403503 19.2654 14.6767 0.00916095
0.479375 -0.0238281 -0.130552 0.410731 19.2101 14.5812 0.00933358