Folder: DaFy_P23/scripts/CV_XRD/data/ascii (part 3)

File: I20180835_244_CV_XRD.dat
# I20180835 #244 CV with XRD
# Potential / V, Current Density / mA/cm^2, Strain ip / %, Strain oop / %, d ip / nm, d oop / nm, Intensity (area ip)
0.381563 -0.0302344 -0.117352 0.392993 19.2981 14.716 0.00918607
0.389375 -0.0336719 -0.118293 0.385153 19.3435 14.6767 0.0091779
0.417656 -0.0359375 -0.121824 0.385713 19.2944 14.5585 0.00929498
0.458984 -0.0395313 -0.123476 0.365762 19.2101 14.6343 0.00890177
0.478984 -0.0414844 -0.126148 0.354066 19.1014 14.4734 0.00891696
0.528438 -0.0396875 -0.1341 0.344518 19.0451 14.5609 0.00868773
0.556641 -0.0322656 -0.142193 0.340837 19.1287 14.3288 0.00844671
0.59625 -0.046875 -0.145127 0.326373 18.9878 14.3437 0.00862179
0.610391 -0.0830469 -0.149526 0.324925 19.1029 14.384 0.00840259
0.65875 -0.212266 -0.152522 0.327489 19.0436 14.3185 0.00838728
0.641563 -0.136094 -0.156382 0.323396 19.108 14.2508 0.00825434
0.599063 -0.0573437 -0.159182 0.329625 19.0805 14.3032 0.00840421
0.574141 -0.0340625 -0.161308 0.328092 18.9417 14.3726 0.00839404
0.538984 -0.03125 -0.159146 0.334755 19.0817 14.3323 0.00842087
0.506953 -0.0325781 -0.156039 0.336619 19.0334 14.2419 0.00859359
0.469609 -0.0283594 -0.155633 0.340833 19.0251 14.3623 0.00866041
0.444297 -0.0280469 -0.151742 0.346579 19.1467 14.4812 0.00883688
0.407813 -0.0305469 -0.151809 0.356254 19.2236 14.4261 0.00890525
0.371719 -0.0289844 -0.146571 0.365037 19.277 14.635 0.0090698
0.342266 -0.0292188 -0.145956 0.370384 19.3622 14.64 0.00898053
0.299531 -0.0285938 -0.145994 0.372327 19.3049 14.5361 0.00874288
0.280313 -0.0282813 -0.138254 0.382856 19.2351 14.6097 0.0089924
0.241875 -0.0246094 -0.134856 0.395791 19.2281 14.5261 0.00886411
0.203906 -0.0267187 -0.133712 0.399105 19.3098 14.6585 0.00901084
0.177266 -0.0248438 -0.129091 0.419027 19.3277 14.6883 0.00909291
0.142109 -0.025 -0.132097 0.424248 19.1259 14.7111 0.00908548
0.115469 -0.0259375 -0.122262 0.433644 19.3912 14.835 0.00934856
0.0823438 -0.0225781 -0.120166 0.451879 19.302 14.8022 0.00948542
0.0373438 -0.024375 -0.118797 0.457794 19.3876 14.8944 0.00915624
0.00773437 -0.0235938 -0.110951 0.470733 19.4064 14.9237 0.00895951
-0.0192187 -0.02375 -0.110618 0.487701 19.1984 14.8965 0.00920609
-0.00546875 -0.0267187 -0.109957 0.500168 19.2108 14.9504 0.00931744
0.0411719 -0.0271094 -0.110448 0.49022 19.308 14.8931 0.00913832
0.0628125 -0.0266406 -0.107898 0.47876 19.283 14.8654 0.00913643
0.105938 -0.0276563 -0.110513 0.473821 19.2442 14.9298 0.00902301
0.127188 -0.0276563 -0.107728 0.465331 19.1439 14.8371 0.00912514
0.168359 -0.0289844 -0.108635 0.451607 19.2699 14.8907 0.00927222
0.199219 -0.030625 -0.109524 0.446909 19.2828 14.7818 0.00934717
0.240859 -0.0303906 -0.110949 0.440158 19.2909 14.9066 0.00936126
0.264688 -0.0325781 -0.112548 0.428836 19.2906 14.7819 0.00917887
0.295547 -0.0345312 -0.115106 0.424696 19.4322 14.8333 0.00916941
0.345313 -0.0332812 -0.116402 0.413139 19.2257 14.7843 0.00902869
0.368125 -0.0345312 -0.116768 0.410597 19.412 14.6345 0.00933553
0.403828 -0.035 -0.119407 0.401587 19.295 14.6366 0.00915971
0.430938 -0.0378906 -0.12278 0.385633 19.2743 14.4906 0.00900895
0.466562 -0.0375781 -0.129332 0.372394 19.1714 14.5693 0.00921923
0.498672 -0.0392188 -0.132562 0.356797 19.2233 14.504 0.00891405
0.530391 -0.0400781 -0.138314 0.343492 19.0571 14.427 0.00905672
0.566016 -0.0430469 -0.145037 0.335608 19.0707 14.4054 0.00864196
0.589141 -0.053125 -0.143959 0.325439 18.9792 14.4599 0.00860356
0.635547 -0.0984375 -0.154805 0.331772 19.1681 14.2839 0.00857753
0.665469 -0.24875 -0.159296 0.320678 18.9227 14.2655 0.00858624
0.637344 -0.120703 -0.156896 0.315762 19.0707 14.4121 0.00878004
0.602578 -0.0557031 -0.155233 0.322868 18.9717 14.2478 0.00840916
0.565 -0.0347656 -0.161002 0.32939 19.1413 14.327 0.00866671
0.54 -0.0307031 -0.157801 0.326728 19.0639 14.3175 0.00869443
0.499688 -0.0309375 -0.155159 0.335678 19.0195 14.362 0.00894252
0.467969 -0.0322656 -0.152042 0.336811 19.089 14.4106 0.00853401
0.436641 -0.0298438 -0.14774 0.335912 19.1696 14.5249 0.0084739
0.407578 -0.0278125 -0.146331 0.349124 19.107 14.4887 0.00875988
0.364141 -0.0297656 -0.138482 0.361824 19.1243 14.4514 0.00881629
0.331406 -0.02875 -0.139288 0.369098 19.2607 14.5269 0.00903256
0.301563 -0.0283594 -0.140993 0.380435 19.3081 14.6665 0.0094517
0.261953 -0.0284375 -0.140145 0.38772 19.1843 14.5817 0.00916884
0.2375 -0.0267187 -0.191428 0.314228 18.7731 14.3448 0.00492128
0.195938 -0.0227344 0.271898 0.289396 18.5083 14.7924 0.000250782
0.170469 -0.02375 4.70518 -10.9704 16.0174 9.38799 1.71887e-16
0.140781 -0.0264844 4.18041 -7.29668 25.6653 14.8729 6.02756e-14
0.103906 -0.0248438 4.89294 -6.66929 32.8241 14.2086 6.61966e-24
0.0751563 -0.0252344 4.26421 -5.51454 4.14941 12.7079 0.00580055
0.0408594 -0.0251563 -4.64207 10.9691 107.18 33.4335 7.4655e-11
0.00234375 -0.0239063 -6.63058 9.6255 109.147 63.348 2.87681e-11
-0.0260937 -0.0213281 -3.7106 10.26 105.382 13.2156 2.39984e-11
0.00195312 -0.0240625 -3.75703 9.95978 107.658 11.4996 8.93713e-11
0.0446094 -0.0276563 -5.9201 9.93645 109.147 63.348 2.87681e-11
0.0722656 -0.0283594 -6.8227 10.5636 109.147 63.348 2.87681e-11
0.103594 -0.0291406 -6.51602 10.2167 100.445 62.0191 4.83766e-11
0.131484 -0.0283594 -6.31168 10.3722 109.476 9.83053 4.19614e-11
0.172891 -0.0296875 -6.4707 10.6364 109.147 63.348 2.87681e-11
0.198359 -0.0313281 -0.109143 0.451091 19.2451 14.7417 0.00625004
0.235 -0.0328125 -0.107057 0.440586 19.2078 14.7821 0.00568575
0.268047 -0.0317969 -0.108285 0.42151 19.2538 14.8293 0.00645278
0.311484 -0.033125 -0.105912 0.423066 19.2748 14.7984 0.00833933
0.3425 -0.0345312 -0.118854 0.412101 19.2713 14.6874 0.0093343
0.3725 -0.0332812 -0.12448 0.395784 19.2936 14.679 0.00998846
0.398125 -0.0375 -0.130472 0.401881 19.3665 14.5925 0.0100943
0.433828 -0.0374219 -0.133078 0.392458 19.4491 14.668 0.0098942
0.465625 -0.038125 -0.130296 0.378863 19.2452 14.5105 0.00954087
0.497266 -0.0421094 -0.130639 0.366041 19.209 14.369 0.00926378
0.534609 -0.0400781 -0.132214 0.351491 19.1152 14.4217 0.00878412
0.560078 -0.0417969 -0.142727 0.34197 19.1938 14.39 0.00864674
0.599609 -0.0527344 -0.145862 0.325792 19.0045 14.3315 0.0085686
0.634219 -0.101172 -0.143495 0.32449 18.873 14.4102 0.00853568
0.662266 -0.258672 -0.153254 0.322364 19.0627 14.3985 0.00856689
0.628516 -0.104297 -0.155658 0.325161 19.0583 14.2809 0.0083752
0.604297 -0.0539844 -0.154148 0.328331 19.0749 14.4085 0.00849364
0.566406 -0.0383594 -0.154682 0.333273 19.2047 14.3891 0.0086634
0.539844 -0.03375 -0.154305 0.333963 19.0019 14.4118 0.00852219
0.489766 -0.0310156 -0.15309 0.338806 19.1653 14.4839 0.00858005
0.470703 -0.0307031 -0.151833 0.33924 19.1999 14.457 0.00890977
0.439297 -0.0298438 -0.152388 0.350383 19.172 14.4297 0.00896352
0.399141 -0.02875 -0.147348 0.352576 19.1915 14.5785 0.00887063
0.369531 -0.0290625 -0.138517 0.361741 19.2303 14.554 0.00936733
0.333437 -0.0296875 -0.137298 0.375428 19.2342 14.5054 0.00945671
0.305078 -0.02875 -0.136765 0.384278 19.2367 14.5169 0.00929648
0.268437 -0.0252344 -0.130234 0.38558 19.335 14.6733 0.00878105
0.242188 -0.0246094 -0.129998 0.390564 19.2255 14.5739 0.00874258
0.199297 -0.0272656 -0.123449 0.404914 19.3193 14.6112 0.00871071
0.170859 -0.0246875 -0.124462 0.408362 19.2175 14.697 0.00891623
0.139609 -0.025625 -0.119165 0.427823 19.3145 14.6968 0.00886929
0.109219 -0.0252344 -0.117114 0.441512 19.3687 14.8053 0.00874495
0.0738281 -0.0251563 -0.11346 0.458277 19.4211 14.8454 0.00901851
0.0392188 -0.0251563 -0.11183 0.459818 19.3573 14.9732 0.00904883
0.00359375 -0.023125 -0.10899 0.478363 19.238 14.9935 0.00879353
-0.0309375 -0.0241406 -0.0996254 0.487226 19.1742 14.9636 0.0090368
0.00742188 -0.0252344 -0.103451 0.485405 19.3953 14.9269 0.00898936
0.0401562 -0.0253906 -0.102278 0.481249 19.3892 15.0009 0.00908933
0.07125 -0.0274219 -0.0970361 0.476677 19.436 14.9611 0.0091641
0.105313 -0.0301562 -0.100985 0.476184 19.2924 14.8991 0.00903974
0.130312 -0.0291406 -0.103466 0.461659 19.3513 14.9063 0.00907241
0.172344 -0.0301562 -0.105587 0.458242 19.3036 14.8666 0.00927624
0.200156 -0.0303906 -0.106213 0.447121 19.4026 14.9156 0.00919108
0.237813 -0.0311719 -0.107397 0.430926 19.2819 14.7075 0.00899612
0.274375 -0.0333594 -0.109974 0.430732 19.2169 14.8379 0.00891345
0.307344 -0.0308594 -0.111114 0.421239 19.3696 14.8261 0.00898372
0.337734 -0.0353906 -0.114751 0.412783 19.3048 14.6246 0.00898332
0.363516 -0.0352344 -0.112085 0.3973 19.3402 14.6486 0.0093029
0.368125 -0.0326562 -0.115878 0.400453 19.3181 14.6473 0.00915958
0.370391 -0.0326562 -0.110488 0.391884 19.4265 14.6203 0.00833791
0.373594 -0.0338281 -0.112814 0.392324 19.3493 14.6574 0.00822614
0.366641 -0.031875 -0.11338 0.389258 19.3653 14.717 0.00833248
0.368359 -0.0320312 -0.111002 0.389022 19.3158 14.6464 0.0083336
0.374922 -0.0339062 -0.114262 0.395807 19.3502 14.6539 0.00827755
0.363984 -0.0325781 -0.11236 0.387769 19.3226 14.7034 0.00838161
0.373359 -0.0330469 -0.11371 0.385637 19.2889 14.6626 0.00826316
0.365391 -0.0329687 -0.114323 0.38387 19.354 14.7038 0.00859901
0.369219 -0.031875 -0.115597 0.390924 19.2767 14.5951 0.00842521
0.368203 -0.0324219 -0.11601 0.392013 19.2461 14.5797 0.0086483
0.365859 -0.0309375 -0.116569 0.391228 19.2877 14.5797 0.00854853
0.372578 -0.0334375 -0.114621 0.384984 19.4614 14.4965 0.0085787
0.370391 -0.0332031 -0.116699 0.383055 19.4422 14.6108 0.00865653
0.369141 -0.0301562 -0.11651 0.396578 19.4168 14.6266 0.00845583
0.36125 -0.03125 -0.115774 0.385106 19.2377 14.7005 0.00855026
0.362266 -0.0332031 -0.115887 0.386734 19.3603 14.6195 0.00849837
0.365938 -0.03125 -0.116783 0.385774 19.3066 14.5229 0.00847409
0.365312 -0.0326562 -0.116275 0.384985 19.3862 14.5039 0.00844861
0.372344 -0.0316406 -0.117623 0.386991 19.4508 14.5743 0.00833235
0.366953 -0.0314063 -0.11816 0.388999 19.2556 14.6766 0.00849081
0.365469 -0.03125 -0.117059 0.39035 19.304 14.6963 0.00862295
0.366641 -0.0328125 -0.115426 0.384001 19.3515 14.6688 0.00853152
0.368125 -0.0321875 -0.120245 0.385577 19.3335 14.5424 0.00877024